# He
# Form Factors from Chantler Tables
# DOI: https://dx.doi.org/10.18434/T4HS32
# automatically retrived 2019-02-27 using URL https://physics.nist.gov/cgi-bin/ffast/ffast.pl
#
# Z = 2
# f_rel = -0.00042952 e/atom  (Relativistic correction estimate)
# f_NT = -0.00054817 e/atom (Nuclear Thomson correction)


#        E (eV)            f1 (e/atom)          f2 (e/atom)     
         10.69               0.809152               0.0         
        11.42761             0.794174               0.0         
        12.21612             0.776288               0.0         
        13.05903             0.754752               0.0         
        13.9601              0.728554               0.0         
        14.92335             0.69627                0.0         
        15.95306             0.655815               0.0         
        17.05382             0.603976               0.0         
        18.23053             0.535466               0.0         
        19.48844             0.440723               0.0         
        20.83314             0.299815               0.0         
        22.27063            0.0595946               0.0         
        23.8073             -0.537052               0.0         
         24.108             -0.818127               0.0         
         24.477              -1.66675               0.0         
        24.5754              -2.67916               0.0         
         24.723              -1.63405              1.9911       
         25.092             -0.718902              1.9648       
        25.45001            -0.346603              1.9399       
        27.20606             0.444157              1.8248       
        29.08327             0.835659              1.7138       
        31.09002             1.09847               1.6069       
        33.23523             1.29391               1.5043       
        35.52846             1.44669               1.406        
        37.97993             1.56954               1.312        
        40.60054             1.66999               1.2223       
        43.40198             1.75296               1.1369       
        46.39671             1.82186               1.0558       
        49.59809             1.87923              0.97893       
        53.02035             1.92697              0.90618       
        56.67876              1.9666              0.83748       
        60.58959             1.99934              0.77275       
        64.77028             2.02621              0.71188       
        69.23942             2.04803              0.65476       
        74.01695             2.06555              0.60124       
        79.12411             2.07934              0.55122       
        84.58368             2.08994              0.50455       
        90.41995             2.09782              0.46109       
        96.65893             2.10336              0.42069       
        103.3284             2.10693              0.38322       
        110.4581             2.10882              0.34853       
        118.0797              2.1093              0.31646       
        126.2272             2.10861              0.28689       
        134.9368             2.10695              0.25966       
        144.2475             2.10451              0.23464       
        154.2005             2.10143              0.21169       
        164.8404             2.09787              0.19068       
        176.2144             2.09393              0.17148       
        188.3732             2.08972              0.15396       
        201.3709             2.08533              0.13801       
        215.2655             2.08083              0.12352       
        230.1188             2.07628              0.11037       
        245.997              2.07175              0.098459      
        262.9708             2.06727              0.087695      
        281.1158             2.06289              0.077982      
        300.5128             2.05862              0.069233      
        321.2482              2.0545              0.061368      
        343.4143             2.05053              0.054308      
        367.1099             2.04675              0.047984      
        392.4405             2.04315              0.042328      
        419.5189             2.03973              0.037279      
        448.4657             2.03651              0.032779      
        479.4098             2.03349              0.028776      
        512.4891             2.03065              0.025222      
        547.8508              2.028               0.022071      
        585.6525             2.02553              0.019283      
        626.0625             2.02324              0.016819      
        669.2609             2.02112              0.014647      
        715.4399             2.01917              0.012735      
        764.8052             2.01736              0.011055      
        817.5768              2.0157             0.0095814      
        873.9896             2.01418             0.0082906      
        934.2948             2.01279             0.0071622      
        998.7612             2.01152             0.0061775      
        1067.676             2.01036               0.0053       
        1141.345             2.00929             0.0045425      
        1220.098             2.00833             0.0038898      
        1304.285             2.00745              0.003328      
        1394.281             2.00665             0.0028448      
        1490.486             2.00594             0.0024298      
        1593.329             2.00529             0.0020737      
        1703.269             2.00471             0.0017684      
        1820.795             2.00419             0.0015069      
        1946.43              2.00373             0.0012832      
        2080.733             2.00331             0.0010919      
        2224.304             2.00294             0.00092851     
        2377.781              2.0026             0.00078905     
        2541.848             2.00231             0.00067012     
        2717.235             2.00204             0.00056878     
        2904.724             2.00181             0.00048249     
        3105.15               2.0016             0.00040907     
        3319.406             2.00141             0.00034664     
        3548.445             2.00125             0.0002936      
        3793.288              2.0011             0.00024855     
        4055.024             2.00097             0.00021033     
        4334.821             2.00086             0.00017791     
        4633.924             2.00076             0.00015043     
        4953.664             2.00067             0.00012714     
        5295.467             2.00059             0.00010743     
        5660.855             2.00052             9.074e-05      
        6051.453             2.00046             7.6624e-05     
        6469.004              2.0004             6.4687e-05     
        6915.365             2.00035             5.4596e-05     
        7392.525             2.00031             4.607e-05      
        7902.609             2.00027             3.8868e-05     
        8447.89              2.00024             3.2787e-05     
        9030.794             2.00021             2.7654e-05     
        9653.919             2.00019             2.3322e-05     
        10320.04             2.00016             1.9667e-05     
        11032.12             2.00014             1.6584e-05     
        11793.34             2.00013             1.3984e-05     
        12607.08             2.00011             1.1791e-05     
        13476.97              2.0001             9.9427e-06     
        14406.88             2.00009             8.3843e-06     
        15400.95             2.00007             7.0708e-06     
        16463.62             2.00007             5.9636e-06     
        17599.61             2.00006             5.0304e-06     
        18813.98             2.00005             4.2439e-06     
        20112.15             2.00004             3.581e-06      
        21499.88             2.00004             3.0223e-06     
        22983.38             2.00003             2.5513e-06     
        24569.23             2.00003             2.1543e-06     
        26264.5              2.00003             1.8195e-06     
        28076.76             2.00002             1.5373e-06     
        30014.05             2.00002             1.2992e-06     
        32085.02             2.00002             1.0984e-06     
        34298.89             2.00002             9.2904e-07     
        36665.51             2.00001             7.8609e-07     
        39195.43             2.00001             6.6542e-07     
        41899.92             2.00001             5.6354e-07     
        44791.01             2.00001             4.7748e-07     
        47881.59             2.00001             4.0478e-07     
        51185.42             2.00001             3.4333e-07     
        54717.21             2.00001             2.9137e-07     
        58492.7              2.00001             2.4742e-07     
        62528.7                2.0               2.1023e-07     
        66843.18               2.0               1.7875e-07     
        71455.36               2.0               1.5208e-07     
        76385.78               2.0               1.2948e-07     
        81656.4                2.0               1.1032e-07     
        87290.69               2.0               9.4059e-08     
        93313.74               2.0               8.026e-08      
        99752.39               2.0               6.854e-08      
        106635.3               2.0               5.8579e-08     
        113993.1               2.0               5.0108e-08     
        121858.7               2.0                4.29e-08      
        130266.9               2.0               3.6762e-08     
        139255.3               2.0               3.1531e-08     
        148864.0               2.0               2.707e-08      
        159135.6               2.0               2.3263e-08     
        170115.9               2.0               2.0011e-08     
        181853.9               2.0               1.7232e-08     
        194401.8               2.0               1.4854e-08     
        207815.6               2.0               1.2818e-08     
        222154.8               2.0               1.1073e-08     
        237483.5               2.0               9.5771e-09     
        253869.9               2.0               8.2925e-09     
        271386.9               2.0               7.1887e-09     
        290112.6               2.0               6.2394e-09     
        310130.4               2.0               5.4221e-09     
        331529.4               2.0               4.7179e-09     
        354404.9               2.0               4.1103e-09     
        378858.8               2.0               3.5857e-09     
        405000.1               2.0               3.1323e-09     
        432945.1               2.0               2.7399e-09     
