# Li
# Form Factors from Chantler Tables
# DOI: https://dx.doi.org/10.18434/T4HS32
# automatically retrived 2019-02-27 using URL https://physics.nist.gov/cgi-bin/ffast/ffast.pl
#
# Z = 3
# f_rel = -0.00098613 e/atom  (Relativistic correction estimate)
# f_NT = -0.00071131 e/atom (Nuclear Thomson correction)


#        E (eV)            f1 (e/atom)          f2 (e/atom)     
         5.2332              0.908733               0.0         
         5.3133              0.859283               0.0         
        5.33466              0.803599               0.0         
         5.3667              0.856971             0.10769       
         5.4468              0.901968             0.10987       
         10.69                1.0766              0.17745       
        11.42761             1.08752              0.17721       
        12.21612             1.09737              0.17581       
        13.05903             1.10595              0.17335       
        13.9601              1.11307              0.16997       
        14.92335             1.11854              0.16578       
        15.95306             1.12215              0.16092       
        17.05382             1.12376              0.15551       
        18.23053             1.12305              0.14967       
        19.48844              1.1198               0.1435       
        20.83314              1.1137              0.13711       
        22.27063             1.10441              0.13057       
        23.8073               1.0914              0.12391       
        25.45001             1.07404              0.11721       
        27.20606             1.05151              0.11056       
        29.08327             1.02273              0.10401       
        31.09002             0.986239             0.097625      
        33.23523             0.939944             0.091431      
        35.52846             0.880803             0.085462      
        37.97993             0.804138             0.079741      
        40.60054             0.702294             0.07428       
        43.40198             0.561559             0.069091      
        46.39671             0.35373              0.064175      
        49.59809            0.00488984            0.059534      
        53.02035            -0.835477             0.055164      
         53.655              -1.19807             0.054412      
        54.47625             -2.31019             0.053466      
        54.69525             -3.60723             0.053218      
        55.02375             -2.31071              2.5879       
         55.845              -1.18751              2.5985       
        56.67876             -0.72105              2.6092       
        60.58959             0.250867              2.6581       
        64.77028             0.817156              2.6783       
        69.23942             1.26129               2.6515       
        74.01695             1.63438               2.5848       
        79.12411             1.95333               2.4858       
        84.58368             2.22569               2.3627       
        90.41995              2.4562               2.2228       
        96.65893             2.64887               2.0728       
        103.3284             2.80757               1.9181       
        110.4581             2.93608               1.7633       
        118.0797             3.03823               1.612        
        126.2272             3.11772               1.4666       
        134.9368             3.17802               1.329        
        144.2475             3.22227               1.2001       
        154.2005             3.25329               1.0806       
        164.8404             3.27358              0.97059       
        176.2144             3.28517              0.86995       
        188.3732              3.2899              0.77835       
        201.3709             3.28929              0.69532       
        215.2655             3.28462              0.62031       
        230.1188             3.27691              0.55269       
        245.997              3.26695               0.4918       
        262.9708             3.25537              0.43709       
        281.1158             3.24269              0.38805       
        300.5128             3.22935              0.34415       
        321.2482             3.21568              0.30493       
        343.4143             3.20197              0.26993       
        367.1099             3.18842              0.23873       
        392.4405             3.17518              0.21095       
        419.5189             3.16239              0.18625       
        448.4657             3.15011               0.1643       
        479.4098             3.13842              0.14482       
        512.4891             3.12734              0.12754       
        547.8508              3.1169              0.11224       
        585.6525             3.10711              0.098699      
        626.0625             3.09796              0.086728      
        669.2609             3.08945              0.076155      
        715.4399             3.08155              0.066826      
        764.8052             3.07424              0.058603      
        817.5768             3.06751              0.051362      
        873.9896             3.06132              0.04499       
        934.2948             3.05566              0.03939       
        998.7612             3.05049              0.034471      
        1067.676             3.04576              0.029934      
        1141.345             3.04136              0.025916      
        1220.098             3.03729              0.022438      
        1304.285             3.03355              0.019426      
        1394.281             3.03015              0.016819      
        1490.486             3.02705              0.014561      
        1593.329             3.02425              0.012607      
        1703.269             3.02172              0.010915      
        1820.795             3.01943             0.0094497      
        1946.43              3.01738             0.0081814      
        2080.733             3.01553             0.0070833      
        2224.304             3.01387             0.0061326      
        2377.781             3.01238             0.0053094      
        2541.848             3.01105             0.0045965      
        2717.235             3.00986             0.0039792      
        2904.724             3.00881             0.0034448      
        3105.15              3.00786             0.0029684      
        3319.406             3.00699             0.0025468      
        3548.445             3.00621             0.0021851      
        3793.288             3.00552             0.0018748      
        4055.024              3.0049             0.0016085      
        4334.821             3.00435             0.0013801      
        4633.924             3.00385             0.0011841      
        4953.664             3.00341             0.0010159      
        5295.467             3.00302             0.00087162     
        5660.855             3.00268             0.00074783     
        6051.453             3.00237             0.00064162     
        6469.004              3.0021             0.0005505      
        6915.365             3.00186             0.00047232     
        7392.525             3.00164             0.00040524     
        7902.609             3.00145             0.00034768     
        8447.89              3.00128             0.00029831     
        9030.794             3.00113             0.00025574     
        9653.919              3.001              0.00021863     
        10320.04             3.00088             0.00018691     
        11032.12             3.00078             0.00015979     
        11793.34             3.00069             0.00013661     
        12607.08             3.00061             0.00011679     
        13476.97             3.00053             9.9841e-05     
        14406.88             3.00047             8.5355e-05     
        15400.95             3.00042             7.2971e-05     
        16463.62             3.00037             6.2383e-05     
        17599.61             3.00032             5.3332e-05     
        18813.98             3.00028             4.5594e-05     
        20112.15             3.00025             3.8979e-05     
        21499.88             3.00022             3.3323e-05     
        22983.38             3.00019             2.8488e-05     
        24569.23             3.00017             2.4355e-05     
        26264.5              3.00015             2.0857e-05     
        28076.76             3.00013             1.7837e-05     
        30014.05             3.00012             1.5245e-05     
        32085.02              3.0001             1.303e-05      
        34298.89             3.00009             1.1137e-05     
        36665.51             3.00008             9.5189e-06     
        39195.43             3.00007             8.1358e-06     
        41899.92             3.00006             6.9538e-06     
        44791.01             3.00005             5.9434e-06     
        47881.59             3.00005             5.0799e-06     
        51185.42             3.00004             4.3418e-06     
        54717.21             3.00004             3.711e-06      
        58492.7              3.00003             3.1718e-06     
        62528.7              3.00003             2.711e-06      
        66843.18             3.00002             2.3171e-06     
        71455.36             3.00002             1.9805e-06     
        76385.78             3.00002             1.6927e-06     
        81656.4              3.00002             1.4468e-06     
        87290.69             3.00001             1.2366e-06     
        93313.74             3.00001             1.0569e-06     
        99752.39             3.00001             9.0339e-07     
        106635.3             3.00001             7.7214e-07     
        113993.1             3.00001             6.5996e-07     
        121858.7             3.00001             5.6408e-07     
        130266.9             3.00001             4.8213e-07     
        139255.3             3.00001             4.1209e-07     
        148864.0             3.00001             3.5222e-07     
        159135.6               3.0               3.0105e-07     
        170115.9               3.0               2.5732e-07     
        181853.9               3.0               2.1993e-07     
        194401.8               3.0               1.8798e-07     
        207815.6               3.0               1.6067e-07     
        222154.8               3.0               1.3733e-07     
        237483.5               3.0               1.1738e-07     
        253869.9               3.0               1.0033e-07     
        271386.9               3.0               8.5755e-08     
        290112.6               3.0               7.3297e-08     
        310130.4               3.0               6.2649e-08     
        331529.4               3.0               5.3548e-08     
        354404.9               3.0               4.577e-08      
        378858.8               3.0               3.9121e-08     
        405000.1               3.0               3.3438e-08     
        432945.1               3.0               2.8581e-08     
