# Mg
# Form Factors from Chantler Tables
# DOI: https://dx.doi.org/10.18434/T4HS32
# automatically retrived 2019-02-28 using URL https://physics.nist.gov/cgi-bin/ffast/ffast.pl

# For f_rel the second term, which is 3/5th of the Cromer-Liberman value, is used as suggested by Chantler.
# Real and imaginary part of the formfactors are: f'(E)=f1(E)+f_rel+f_NT and f''(E)=f2(E)
# see also original publication:  https://doi.org/10.1063/1.555974

# Z = 12
# f_rel = -0.0108 e/atom  (Relativistic correction estimate)
# f_NT = -0.0032502 e/atom (Nuclear Thomson correction)


#        E (eV)            f1 (e/atom)          f2 (e/atom)     
         10.69               2.46798                0.0         
        11.42761             2.45703                0.0         
        12.21612             2.44446                0.0         
        13.05903             2.42999                0.0         
        13.9601              2.41334                0.0         
        14.92335             2.39414                0.0         
        15.95306             2.37197                0.0         
        17.05382             2.34635                0.0         
        18.23053             2.31667                0.0         
        19.48844             2.28222                0.0         
        20.83314             2.24214                0.0         
        22.27063             2.19535                0.0         
        23.8073              2.14053                0.0         
        25.45001             2.07604                0.0         
        27.20606             1.99976                0.0         
        29.08327             1.90893                0.0         
        31.09002             1.79989                0.0         
        33.23523              1.6676                0.0         
        35.52846             1.50483                0.0         
        37.97993             1.30071                0.0         
        40.60054              1.0375                0.0         
        43.40198             0.68272                0.0         
        46.39671             0.163175               0.0         
        49.59809             -0.79466               0.0         
         50.372              -1.23235               0.0         
         51.143              -2.14633               0.0         
        51.3486              -3.06571               0.0         
         51.657              -2.31811              1.7107       
         52.428              -1.77102              1.8464       
        53.02035             -1.65181              1.9565       
        56.67876             -1.58097              2.7595       
        60.58959             -1.5153               3.7482       
        64.77028             -1.24345              4.7712       
        69.23942             -0.75002              5.7446       
        74.01695            -0.0657205             6.5956       
        79.12411             0.745736              7.2727       
        84.58368              1.5776               7.7495       
         87.612              1.91414               7.9183       
         88.953              1.87327               7.9741       
        89.3106              1.62388               7.9871       
         89.847              2.01523               8.608        
        90.41995             2.26495               8.6311       
         91.188              2.49637               8.6592       
        96.65893             3.62633               8.7766       
        103.3284             4.71331               8.7615       
        110.4581             5.69293               8.6076       
        118.0797             6.56897               8.3455       
        126.2272             7.34102               8.0043       
        134.9368             8.01184               7.6096       
        144.2475             8.58744               7.1826       
        154.2005             9.07657               6.7401       
        164.8404             9.48729               6.2947       
        176.2144             9.82965               5.8557       
        188.3732             10.1128               5.4298       
        201.3709             10.3452               5.0212       
        215.2655             10.5347               4.632        
        230.1188             10.6868               4.2624       
        245.997              10.8064               3.9136       
        262.9708             10.8979               3.5864       
        281.1158             10.9658               3.2807       
        300.5128             11.0131               2.9961       
        321.2482             11.0431               2.7321       
        343.4143             11.0586               2.4878       
        367.1099             11.0617               2.2623       
        392.4405             11.0544               2.0544       
        419.5189             11.0378               1.8629       
        448.4657             11.0132               1.6872       
        479.4098             10.9815               1.5262       
        512.4891             10.9433               1.3791       
        547.8508             10.8992               1.245        
        585.6525             10.8494               1.123        
        626.0625             10.7938               1.0123       
        669.2609             10.7317              0.91188       
        715.4399             10.6624              0.82108       
        764.8052             10.5839              0.73909       
        817.5768             10.4938              0.66515       
        873.9896             10.3877              0.59857       
        934.2948             10.2587               0.5387       
        998.7612             10.0942              0.48399       
        1067.676             9.86553              0.42897       
        1141.345             9.51607              0.38061       
        1220.098             8.85649              0.33816       
         1278.9              7.57149              0.31133       
        1298.475             5.98525              0.30318       
        1304.285             3.41984              0.30083       
        1311.525             5.92695               3.9592       
         1331.1              7.57432               3.9913       
        1394.281             9.30219               3.9993       
        1490.486             10.4949               3.6712       
        1593.329              11.169               3.2546       
        1703.269             11.5495               2.8511       
        1820.795             11.7834               2.5397       
        1946.43              11.9494               2.2732       
        2080.733             12.0708               2.0422       
        2224.304             12.1624               1.8378       
        2377.781             12.2323               1.6539       
        2541.848             12.2852               1.4866       
        2717.235             12.3707               1.3291       
        2904.724             12.3918               1.185        
        3105.15              12.4049               1.0522       
        3319.406             12.4053              0.93089       
        3548.445             12.3973              0.82358       
        3793.288             12.3843              0.72867       
        4055.024             12.3682              0.64473       
        4334.821             12.3501              0.57048       
        4633.924              12.331              0.50479       
        4953.664             12.3116              0.44669       
        5295.467             12.2924              0.39528       
        5660.855              12.274              0.34977       
        6051.453             12.2558              0.30719       
        6469.004             12.2374              0.26981       
        6915.365             12.2194              0.23698       
        7392.525             12.2022              0.20815       
        7902.609              12.186              0.18283       
        8447.89               12.171               0.1606       
        9030.794              12.157              0.14079       
        9653.919             12.1436              0.12254       
        10320.04             12.1308              0.10666       
        11032.12             12.1189              0.092844      
        11793.34             12.1078              0.080816      
        12607.08             12.0976              0.070348      
        13476.97             12.0882              0.061236      
        14406.88             12.0796              0.053306      
        15400.95             12.0718              0.046403      
        16463.62             12.0646              0.040394      
        17599.61             12.0581              0.035164      
        18813.98             12.0522              0.030611      
        20112.15             12.0469              0.026648      
        21499.88             12.0421              0.023199      
        22983.38             12.0378              0.020196      
        24569.23             12.0339              0.017582      
        26264.5              12.0304              0.015306      
        28076.76             12.0272              0.013269      
        30014.05             12.0244              0.011454      
        32085.02             12.0218             0.0098871      
        34298.89             12.0195             0.0085347      
        36665.51             12.0174             0.0073674      
        39195.43             12.0155             0.0063597      
        41899.92             12.0138             0.0054892      
        44791.01             12.0123             0.0047372      
        47881.59             12.0109             0.0040882      
        51185.42             12.0097             0.0035282      
        54717.21             12.0086             0.0030449      
        58492.7              12.0077             0.0026278      
        62528.7              12.0068             0.0022678      
        66843.18              12.006             0.0019572      
        71455.36             12.0053             0.0016891      
        76385.78             12.0047             0.0014577      
        81656.4              12.0042              0.001258      
        87290.69             12.0037             0.0010857      
        93313.74             12.0033             0.00093701     
        99752.39             12.0029             0.00080867     
        106635.3             12.0026             0.00069791     
        113993.1             12.0023             0.00060232     
        121858.7              12.002             0.00051983     
        130266.9             12.0018             0.00044863     
        139255.3             12.0016             0.00038719     
        148864.0             12.0014             0.00033416     
        159135.6             12.0012             0.00028839     
        170115.9             12.0011             0.0002489      
        181853.9              12.001             0.00021481     
        194401.8             12.0008             0.00018539     
        207815.6             12.0007              0.00016       
        222154.8             12.0007             0.00013809     
        237483.5             12.0006             0.00011918     
        253869.9             12.0005             0.00010286     
        271386.9             12.0005             8.8772e-05     
        290112.6             12.0004             7.6615e-05     
        310130.4             12.0004             6.6123e-05     
        331529.4             12.0003             5.7068e-05     
        354404.9             12.0003             4.9253e-05     
        378858.8             12.0002             4.2508e-05     
        405000.1             12.0002             3.6687e-05     
        432945.1             12.0002             3.1663e-05     
